Folder: FTIR

File: HDPE processed.csv
wavenumber,intensity
599.76,0
611.331,0
622.902,0
634.473,0
646.044,0
657.615,0
669.186,0
680.757,0.005914723
692.328,0.007868531
703.899,0.0127722
715.47,0.0590547
727.041,0.0506557
738.612,0.007605032
750.183,0
761.754,0
773.325,0
784.895,0
796.466,0
808.037,0
819.608,0
831.179,0
842.75,0
854.321,0
865.892,0
877.463,0
889.034,0
900.605,0
912.176,0
923.747,0
935.318,0
946.889,0
958.46,0
970.03,0
981.601,0
993.172,0
1004.74,0
1016.31,0
1027.89,0
1039.46,0
1051.03,0
1062.6,0
1074.17,0
1085.74,0
1097.31,0
1108.88,0
1120.45,0
1132.02,0
1143.59,0
1155.17,0
1166.74,0
1178.31,0
1189.88,0
1201.45,0
1213.02,0
1224.59,0
1236.16,0
1247.73,0
1259.3,0
1270.87,0
1282.45,0
1294.02,0
1305.59,0
1317.16,0
1328.73,0
1340.3,0
1351.87,0.006323763
1363.44,0.005906229
1375.01,0.007050822
1386.58,0
1398.16,0
1409.73,0.007227944
1421.3,0.009929291
1432.87,0.02981032
1444.44,0.0404892
1456.01,0.0510681
1467.58,0.128295
1479.15,0.0180793
1490.72,0
1502.29,0
1513.86,0
1525.44,0
1537.01,0
1548.58,0
1560.15,0
1571.72,0
1583.29,0
1594.86,0
1606.43,0.006297071
1618,0
1629.57,0.0100819
1641.15,0.0108267
1652.72,0
1664.29,0.007951496
1675.86,0
1687.43,0.008554838
1699,0
1710.57,0.0191283
1722.14,0.0157165
1733.71,0
1745.28,0.027654
1756.85,0.006041273
1768.43,0
1780,0
1791.57,0
1803.14,0
1814.71,0
1826.28,0
1837.85,0
1849.42,0
1860.99,0
1872.56,0
1884.13,0
1895.71,0
1907.28,0
1918.85,0
1930.42,0
1941.99,0
1953.56,0
1965.13,0.005518232
1976.7,0
1988.27,0
1999.84,0
2011.42,0
2022.99,0.005371702
2034.56,0.006837974
2046.13,0
2057.7,0
2069.27,0
2080.84,0
2092.41,0
2103.98,0
2115.55,0
2127.12,0
2138.7,0
2150.27,0
2161.84,0
2173.41,0
2184.98,0
2196.55,0
2208.12,0
2219.69,0
2231.26,0
2242.83,0
2254.4,0
2265.98,0
2277.55,0
2289.12,0
2300.69,0
2312.26,0
2323.83,0
2335.4,0
2346.97,0
2358.54,0
2370.11,0
2381.69,0
2393.26,0
2404.83,0
2416.4,0
2427.97,0
2439.54,0
2451.11,0
2462.68,0
2474.25,0
2485.82,0
2497.39,0
2508.97,0
2520.54,0
2532.11,0
2543.68,0
2555.25,0
2566.82,0
2578.39,0
2589.96,0
2601.53,0.006839716
2613.1,0.006876095
2624.67,0.007273017
2636.25,0.008322852
2647.82,0.008193842
2659.39,0.007478287
2670.96,0.007339022
2682.53,0.00760433
2694.1,0.007738175
2705.67,0.008810995
2717.24,0.0103743
2728.81,0.0137624
2740.38,0.0194754
2751.96,0.0194252
2763.53,0.02383755
2775.1,0.0305181
2786.67,0.0409645
2798.24,0.055334
2809.81,0.0749421
2821.38,0.11053
2832.95,0.190475
2844.52,0.65905
2856.09,0.374545
2867.66,0.153495
2879.24,0.207695
2890.81,0.345481
2902.38,0.486113
2913.95,0.975196
2925.52,0.506379
2937.09,0.203338
2948.66,0.0931121
2960.23,0.0704616
2971.8,0.0298839
2983.37,0.009497421
2994.95,0.006096048
3006.52,0.005866735
3018.09,0
3029.66,0
3041.23,0
3052.8,0
3064.37,0
3075.94,0
3087.51,0
3099.08,0
3110.65,0
3122.23,0
3133.8,0
3145.37,0
3156.94,0
3168.51,0
3180.08,0
3191.65,0
3203.22,0
3214.79,0
3226.36,0
3237.93,0
3249.51,0
3261.08,0
3272.65,0
3284.22,0
3295.79,0
3307.36,0
3318.93,0.005921949
3330.5,0.006253037
3342.07,0.006985012
3353.64,0.007063576
3365.22,0.007619571
3376.79,0.007662143
3388.36,0.008031114
3399.93,0.0074715
3411.5,0.007913472
3423.07,0.007562137
3434.64,0.008052242
3446.21,0.007553151
3457.78,0.0100045
3469.35,0.009889584
3480.92,0.008170826
3492.5,0.008034326
3504.07,0.006210203
3515.64,0.007443316
3527.21,0.00628562
3538.78,0.00697197
3550.35,0.007669404
3561.92,0.007239782
3573.49,0.007773918
3585.06,0.005524009
3596.63,0.007573636
3608.2,0
3619.78,0
3631.35,0.006004755
3642.92,0.0147973
3654.49,0.006233774
3666.06,0.0149569
3677.63,0
3689.2,0
3700.77,0.006664938
3712.34,0
3723.91,0.009477605
3735.49,0
3747.06,0.0151139
3758.63,0.0122286
3770.2,0.005868832
3781.77,0.0259803
3793.34,0.026575
3804.91,0.0191079
3816.48,0
3828.05,0.0232384
3839.62,0
3851.19,0
3862.77,0.014862
3874.34,0.008920791
3885.91,0
3897.48,0.0146108
3909.05,0.0193012
3920.62,0.013273
3932.19,0.006601219
3943.76,0.006539288
3955.33,0.006813791
3966.9,0
3978.47,0
3990.05,0
4000.17,0

File: HDPE-1 processed.csv
wavenumber,intensity
599.76,0
611.331,0
622.902,0
634.473,0
646.044,0
657.615,0
669.186,0
680.757,0
692.328,0
703.899,0.0166786
715.47,0.055804
727.041,0.0436627
738.612,0
750.183,0
761.754,0
773.325,0
784.895,0
796.466,0
808.037,0
819.608,0
831.179,0
842.75,0
854.321,0
865.892,0
877.463,0
889.034,0
900.605,0
912.176,0
923.747,0
935.318,0
946.889,0
958.46,0
970.03,0
981.601,0
993.172,0
1004.74,0
1016.31,0
1027.89,0
1039.46,0
1051.03,0
1062.6,0
1074.17,0
1085.74,0
1097.31,0
1108.88,0
1120.45,0
1132.02,0
1143.59,0
1155.17,0
1166.74,0
1178.31,0
1189.88,0
1201.45,0
1213.02,0
1224.59,0
1236.16,0
1247.73,0
1259.3,0
1270.87,0
1282.45,0
1294.02,0
1305.59,0
1317.16,0
1328.73,0
1340.3,0
1351.87,0
1363.44,0
1375.01,0
1386.58,0
1398.16,0
1409.73,0.0144619
1421.3,0.0144969
1432.87,0.02403
1444.44,0.0346363
1456.01,0.0176591
1467.58,0.116935
1479.15,0.0237152
1490.72,0
1502.29,0
1513.86,0
1525.44,0
1537.01,0
1548.58,0
1560.15,0
1571.72,0
1583.29,0.0137182
1594.86,0.0137172
1606.43,0.0152642
1618,0
1629.57,0.0161214
1641.15,0.0203767
1652.72,0
1664.29,0.0146417
1675.86,0
1687.43,0.0155724
1699,0
1710.57,0.0190676
1722.14,0.018146
1733.71,0
1745.28,0.0231416
1756.85,0
1768.43,0
1780,0
1791.57,0
1803.14,0
1814.71,0
1826.28,0
1837.85,0
1849.42,0
1860.99,0
1872.56,0
1884.13,0
1895.71,0
1907.28,0
1918.85,0
1930.42,0
1941.99,0
1953.56,0
1965.13,0
1976.7,0
1988.27,0
1999.84,0
2011.42,0
2022.99,0
2034.56,0
2046.13,0
2057.7,0
2069.27,0
2080.84,0
2092.41,0
2103.98,0
2115.55,0
2127.12,0
2138.7,0
2150.27,0
2161.84,0
2173.41,0
2184.98,0
2196.55,0
2208.12,0
2219.69,0
2231.26,0
2242.83,0
2254.4,0
2265.98,0
2277.55,0
2289.12,0
2300.69,0
2312.26,0
2323.83,0
2335.4,0
2346.97,0
2358.54,0
2370.11,0
2381.69,0
2393.26,0
2404.83,0
2416.4,0
2427.97,0
2439.54,0
2451.11,0
2462.68,0
2474.25,0
2485.82,0
2497.39,0
2508.97,0
2520.54,0
2532.11,0
2543.68,0
2555.25,0
2566.82,0
2578.39,0
2589.96,0
2601.53,0
2613.1,0
2624.67,0.0131768
2636.25,0.0142032
2647.82,0.0135749
2659.39,0.0140107
2670.96,0.012852
2682.53,0.01327378
2694.1,0.0140961
2705.67,0.01590329
2717.24,0.0159382
2728.81,0.01727
2740.38,0.0193001
2751.96,0.0179721
2763.53,0.0231001
2775.1,0.0294531
2786.67,0.0388644
2798.24,0.0586435
2809.81,0.0769248
2821.38,0.108166
2832.95,0.193807
2844.52,0.700961
2856.09,0.366386
2867.66,0.14862
2879.24,0.221427
2890.81,0.368841
2902.38,0.5223225
2913.95,0.98019
2925.52,0.54102
2937.09,0.212123
2948.66,0.0883795
2960.23,0.0613873
2971.8,0.0180108
2983.37,0
2994.95,0
3006.52,0
3018.09,0
3029.66,0
3041.23,0
3052.8,0
3064.37,0
3075.94,0
3087.51,0
3099.08,0
3110.65,0
3122.23,0
3133.8,0
3145.37,0
3156.94,0
3168.51,0
3180.08,0
3191.65,0
3203.22,0
3214.79,0
3226.36,0
3237.93,0
3249.51,0
3261.08,0
3272.65,0
3284.22,0
3295.79,0
3307.36,0
3318.93,0
3330.5,0
3342.07,0
3353.64,0
3365.22,0
3376.79,0
3388.36,0
3399.93,0
3411.5,0
3423.07,0
3434.64,0
3446.21,0
3457.78,0
3469.35,0.01381
3480.92,0
3492.5,0.01363747
3504.07,0
3515.64,0.016164
3527.21,0
3538.78,0.0179562
3550.35,0.0172341
3561.92,0.0156235
3573.49,0.0181599
3585.06,0
3596.63,0.0154677
3608.2,0
3619.78,0
3631.35,0.0168735
3642.92,0.0241208
3654.49,0.0165137
3666.06,0.0458193
3677.63,0
3689.2,0
3700.77,0.0190041
3712.34,0
3723.91,0.0355906
3735.49,0
3747.06,0.0412064
3758.63,0.0182245
3770.2,0.0170215
3781.77,0.04968
3793.34,0.05170577
3804.91,0.0439961
3816.48,0
3828.05,0.0460929
3839.62,0
3851.19,0
3862.77,0.0218483
3874.34,0.0191929
3885.91,0
3897.48,0.0363814
3909.05,0.0393443
3920.62,0.021824
3932.19,0.01649241
3943.76,0.016208
3955.33,0.01576867
3966.9,0
3978.47,0
3990.05,0
4000.17,0

File: LDPE-1 processed.csv
wavenumber,intensity
599.76,0
611.331,0
622.902,0
634.473,0
646.044,0
657.615,0
669.186,0
680.757,0
692.328,0
703.899,0.0137553
715.47,0.0762251
727.041,0.0559164
738.612,0
750.183,0
761.754,0
773.325,0
784.895,0
796.466,0
808.037,0
819.608,0
831.179,0
842.75,0
854.321,0
865.892,0
877.463,0
889.034,0
900.605,0
912.176,0
923.747,0
935.318,0
946.889,0
958.46,0
970.03,0
981.601,0
993.172,0
1004.74,0
1016.31,0
1027.89,0
1039.46,0
1051.03,0
1062.6,0
1074.17,0
1085.74,0
1097.31,0
1108.88,0
1120.45,0
1132.02,0
1143.59,0
1155.17,0
1166.74,0
1178.31,0
1189.88,0
1201.45,0
1213.02,0
1224.59,0
1236.16,0
1247.73,0
1259.3,0
1270.87,0
1282.45,0
1294.02,0
1305.59,0
1317.16,0
1328.73,0
1340.3,0
1351.87,0.0100052
1363.44,0.009212714
1375.01,0.0121388
1386.58,0
1398.16,0
1409.73,0
1421.3,0.007366639
1432.87,0.0229383
1444.44,0.0354653
1456.01,0.0583279
1467.58,0.146661
1479.15,0.018947
1490.72,0
1502.29,0
1513.86,0
1525.44,0
1537.01,0
1548.58,0
1560.15,0
1571.72,0
1583.29,0
1594.86,0
1606.43,0
1618,0
1629.57,0.007495326
1641.15,0.008678085
1652.72,0
1664.29,0
1675.86,0
1687.43,0
1699,0
1710.57,0
1722.14,0
1733.71,0
1745.28,0
1756.85,0
1768.43,0
1780,0
1791.57,0
1803.14,0
1814.71,0
1826.28,0
1837.85,0
1849.42,0
1860.99,0
1872.56,0
1884.13,0
1895.71,0
1907.28,0
1918.85,0
1930.42,0
1941.99,0
1953.56,0
1965.13,0
1976.7,0
1988.27,0
1999.84,0
2011.42,0
2022.99,0.007927186
2034.56,0
2046.13,0
2057.7,0
2069.27,0
2080.84,0
2092.41,0
2103.98,0
2115.55,0
2127.12,0
2138.7,0
2150.27,0
2161.84,0
2173.41,0
2184.98,0
2196.55,0
2208.12,0
2219.69,0
2231.26,0
2242.83,0
2254.4,0
2265.98,0
2277.55,0
2289.12,0
2300.69,0
2312.26,0
2323.83,0
2335.4,0
2346.97,0
2358.54,0
2370.11,0
2381.69,0
2393.26,0
2404.83,0
2416.4,0
2427.97,0
2439.54,0
2451.11,0
2462.68,0
2474.25,0
2485.82,0
2497.39,0
2508.97,0
2520.54,0
2532.11,0
2543.68,0
2555.25,0
2566.82,0
2578.39,0
2589.96,0
2601.53,0
2613.1,0
2624.67,0.0078283
2636.25,0.008178531
2647.82,0.007531608
2659.39,0.008185267
2670.96,0.007559125
2682.53,0.007378783
2694.1,0.00740452
2705.67,0.00851422
2717.24,0.008630415
2728.81,0.01156013
2740.38,0.01278482
2751.96,0.0104435
2763.53,0.0147533
2775.1,0.0231368
2786.67,0.0345138
2798.24,0.0521212
2809.81,0.0760658
2821.38,0.119239
2832.95,0.22898
2844.52,0.734015
2856.09,0.381664
2867.66,0.168988
2879.24,0.235845
2890.81,0.393313
2902.38,0.555025
2913.95,0.986809
2925.52,0.511854
2937.09,0.203371
2948.66,0.0861649
2960.23,0.0670726
2971.8,0.0262623
2983.37,0.009812536
2994.95,0
3006.52,0
3018.09,0
3029.66,0
3041.23,0
3052.8,0
3064.37,0
3075.94,0
3087.51,0
3099.08,0
3110.65,0
3122.23,0
3133.8,0
3145.37,0
3156.94,0
3168.51,0
3180.08,0
3191.65,0
3203.22,0
3214.79,0
3226.36,0
3237.93,0
3249.51,0
3261.08,0
3272.65,0
3284.22,0
3295.79,0
3307.36,0
3318.93,0
3330.5,0
3342.07,0
3353.64,0
3365.22,0
3376.79,0
3388.36,0
3399.93,0
3411.5,0
3423.07,0
3434.64,0
3446.21,0
3457.78,0.007146611
3469.35,0.008696357
3480.92,0
3492.5,0.008467681
3504.07,0.007530164
3515.64,0.008789869
3527.21,0
3538.78,0.009143744
3550.35,0.009095852
3561.92,0.009402972
3573.49,0.009928147
3585.06,0.007490178
3596.63,0.009883438
3608.2,0
3619.78,0
3631.35,0.009877671
3642.92,0.0133522
3654.49,0.008242877
3666.06,0.024391
3677.63,0.007646488
3689.2,0
3700.77,0.008565611
3712.34,0
3723.91,0.0122404
3735.49,0
3747.06,0.0129422
3758.63,0.007837019
3770.2,0
3781.77,0.0238511
3793.34,0.0259048
3804.91,0.01383845
3816.48,0
3828.05,0.01901552
3839.62,0
3851.19,0
3862.77,0.008161794
3874.34,0.007432455
3885.91,0
3897.48,0.008981546
3909.05,0.020282
3920.62,0.008670709
3932.19,0
3943.76,0
3955.33,0.00742263
3966.9,0
3978.47,0
3990.05,0
4000.17,0

File: PET-1 processed.csv
wavenumber,intensity
599.76,0
611.331,0
622.902,0
634.473,0
646.044,0
657.615,0
669.186,0.0494333
680.757,0.05949125
692.328,0.0796857
703.899,0.130159
715.47,0.211403
727.041,0.189622
738.612,0
750.183,0
761.754,0
773.325,0
784.895,0
796.466,0
808.037,0
819.608,0
831.179,0
842.75,0
854.321,0
865.892,0
877.463,0
889.034,0
900.605,0
912.176,0
923.747,0
935.318,0
946.889,0
958.46,0
970.03,0
981.601,0
993.172,0
1004.74,0
1016.31,0.128993
1027.89,0
1039.46,0.04779536
1051.03,0.0476986
1062.6,0.06629879
1074.17,0.120766
1085.74,0.200851
1097.31,0.223262
1108.88,0.190629
1120.45,0.185464
1132.02,0.112469
1143.59,0
1155.17,0
1166.74,0
1178.31,0
1189.88,0
1201.45,0.084341
1213.02,0.148533
1224.59,0.251634
1236.16,0.332772
1247.73,0.328271
1259.3,0.277405
1270.87,0.202369
1282.45,0.119713
1294.02,0.0608287
1305.59,0
1317.16,0
1328.73,0
1340.3,0.119383
1351.87,0
1363.44,0
1375.01,0
1386.58,0
1398.16,0
1409.73,0.127851
1421.3,0
1432.87,0
1444.44,0.068873
1456.01,0
1467.58,0.110086
1479.15,0
1490.72,0
1502.29,0.0568125
1513.86,0
1525.44,0
1537.01,0
1548.58,0
1560.15,0
1571.72,0.0557461
1583.29,0.06246
1594.86,0.057499
1606.43,0.0851725
1618,0
1629.57,0.0958064
1641.15,0.12964
1652.72,0
1664.29,0.149897
1675.86,0.0942491
1687.43,0.289593
1699,0.2404429
1710.57,0.71342
1722.14,0.515237
1733.71,0.0669156
1745.28,0.205715
1756.85,0
1768.43,0
1780,0
1791.57,0
1803.14,0
1814.71,0
1826.28,0
1837.85,0
1849.42,0
1860.99,0
1872.56,0
1884.13,0
1895.71,0
1907.28,0
1918.85,0
1930.42,0
1941.99,0
1953.56,0
1965.13,0
1976.7,0
1988.27,0
1999.84,0
2011.42,0
2022.99,0
2034.56,0
2046.13,0
2057.7,0
2069.27,0
2080.84,0
2092.41,0
2103.98,0
2115.55,0
2127.12,0
2138.7,0
2150.27,0
2161.84,0
2173.41,0
2184.98,0
2196.55,0
2208.12,0
2219.69,0
2231.26,0
2242.83,0
2254.4,0
2265.98,0
2277.55,0
2289.12,0
2300.69,0
2312.26,0
2323.83,0
2335.4,0
2346.97,0
2358.54,0
2370.11,0
2381.69,0
2393.26,0
2404.83,0
2416.4,0
2427.97,0
2439.54,0
2451.11,0
2462.68,0
2474.25,0
2485.82,0
2497.39,0
2508.97,0
2520.54,0
2532.11,0
2543.68,0
2555.25,0
2566.82,0
2578.39,0
2589.96,0
2601.53,0
2613.1,0
2624.67,0
2636.25,0
2647.82,0
2659.39,0
2670.96,0
2682.53,0
2694.1,0
2705.67,0
2717.24,0
2728.81,0
2740.38,0
2751.96,0
2763.53,0
2775.1,0
2786.67,0
2798.24,0
2809.81,0.05123717
2821.38,0.067606
2832.95,0.09610022
2844.52,0.335068
2856.09,0.541031
2867.66,0.256906
2879.24,0.214614
2890.81,0.290688
2902.38,0.431849
2913.95,0.742294
2925.52,0.933663
2937.09,0.506225
2948.66,0.314066
2960.23,0.293738
2971.8,0.144711
2983.37,0.0668673
2994.95,0
3006.52,0
3018.09,0
3029.66,0
3041.23,0
3052.8,0
3064.37,0
3075.94,0
3087.51,0
3099.08,0
3110.65,0
3122.23,0
3133.8,0
3145.37,0
3156.94,0
3168.51,0
3180.08,0
3191.65,0
3203.22,0
3214.79,0
3226.36,0
3237.93,0
3249.51,0
3261.08,0
3272.65,0
3284.22,0
3295.79,0
3307.36,0
3318.93,0
3330.5,0
3342.07,0
3353.64,0
3365.22,0
3376.79,0
3388.36,0
3399.93,0
3411.5,0
3423.07,0
3434.64,0
3446.21,0
3457.78,0
3469.35,0.0482045
3480.92,0
3492.5,0
3504.07,0
3515.64,0.0518716
3527.21,0
3538.78,0.0569669
3550.35,0.0524431
3561.92,0.0551391
3573.49,0.0653316
3585.06,0
3596.63,0.05887529
3608.2,0
3619.78,0
3631.35,0.059343
3642.92,0.147376
3654.49,0.0600597
3666.06,0.190267
3677.63,0.0546111
3689.2,0
3700.77,0.127949
3712.34,0
3723.91,0.156178
3735.49,0
3747.06,0.184582
3758.63,0.170469
3770.2,0.113665
3781.77,0.273344
3793.34,0.287209
3804.91,0.219971
3816.48,0
3828.05,0.267613
3839.62,0.0792185
3851.19,0
3862.77,0.159998
3874.34,0.144704
3885.91,0
3897.48,0.160481
3909.05,0.212454
3920.62,0.168158
3932.19,0.121407
3943.76,0.0748472
3955.33,0.0642143
3966.9,0.05531616
3978.47,0
3990.05,0
4000.17,0

File: PET-2 processed.csv
wavenumber,intensity
599.76,0
611.331,0
622.902,0
634.473,0
646.044,0
657.615,0
669.186,0
680.757,0
692.328,0.0980534
703.899,0.153893
715.47,0.304967
727.041,0.486348
738.612,0.118706
750.183,0
761.754,0
773.325,0
784.895,0
796.466,0
808.037,0
819.608,0
831.179,0
842.75,0
854.321,0
865.892,0
877.463,0.0948376
889.034,0
900.605,0
912.176,0
923.747,0
935.318,0
946.889,0
958.46,0
970.03,0
981.601,0
993.172,0
1004.74,0
1016.31,0.309807
1027.89,0.110698
1039.46,0.133475
1051.03,0.101083
1062.6,0.0959551
1074.17,0.20851
1085.74,0.440219
1097.31,0.463411
1108.88,0.285942
1120.45,0.276197
1132.02,0.136686
1143.59,0
1155.17,0
1166.74,0
1178.31,0
1189.88,0
1201.45,0
1213.02,0.120024
1224.59,0.311481
1236.16,0.617174
1247.73,0.58075
1259.3,0.536739
1270.87,0.392201
1282.45,0.331343
1294.02,0.219721
1305.59,0.117701
1317.16,0
1328.73,0
1340.3,0
1351.87,0
1363.44,0
1375.01,0
1386.58,0
1398.16,0
1409.73,0.261384
1421.3,0
1432.87,0.1056706
1444.44,0.150604
1456.01,0
1467.58,0.14947
1479.15,0
1490.72,0
1502.29,0.106741
1513.86,0
1525.44,0
1537.01,0
1548.58,0
1560.15,0
1571.72,0.0976573
1583.29,0.109828
1594.86,0.0988929
1606.43,0.113967
1618,0
1629.57,0.146057
1641.15,0.155359
1652.72,0
1664.29,0.131163
1675.86,0
1687.43,0.300366
1699,0.1258
1710.57,0.969435
1722.14,0.88742
1733.71,0
1745.28,0.273865
1756.85,0
1768.43,0
1780,0
1791.57,0
1803.14,0
1814.71,0
1826.28,0
1837.85,0
1849.42,0
1860.99,0
1872.56,0
1884.13,0
1895.71,0
1907.28,0
1918.85,0
1930.42,0
1941.99,0
1953.56,0
1965.13,0
1976.7,0
1988.27,0
1999.84,0
2011.42,0
2022.99,0
2034.56,0
2046.13,0
2057.7,0
2069.27,0
2080.84,0
2092.41,0
2103.98,0
2115.55,0
2127.12,0
2138.7,0
2150.27,0
2161.84,0
2173.41,0
2184.98,0
2196.55,0
2208.12,0
2219.69,0
2231.26,0
2242.83,0
2254.4,0
2265.98,0
2277.55,0
2289.12,0
2300.69,0
2312.26,0
2323.83,0
2335.4,0
2346.97,0
2358.54,0
2370.11,0
2381.69,0
2393.26,0
2404.83,0
2416.4,0
2427.97,0
2439.54,0
2451.11,0
2462.68,0
2474.25,0
2485.82,0
2497.39,0
2508.97,0
2520.54,0
2532.11,0
2543.68,0
2555.25,0
2566.82,0
2578.39,0
2589.96,0
2601.53,0
2613.1,0
2624.67,0
2636.25,0
2647.82,0
2659.39,0
2670.96,0
2682.53,0
2694.1,0
2705.67,0
2717.24,0
2728.81,0
2740.38,0
2751.96,0
2763.53,0
2775.1,0
2786.67,0
2798.24,0
2809.81,0
2821.38,0
2832.95,0.120652
2844.52,0.305423
2856.09,0.505952
2867.66,0.230565
2879.24,0.200466
2890.81,0.263
2902.38,0.381584
2913.95,0.716829
2925.52,0.884819
2937.09,0.471891
2948.66,0.304552
2960.23,0.290192
2971.8,0.130756
2983.37,0
2994.95,0
3006.52,0
3018.09,0
3029.66,0
3041.23,0
3052.8,0
3064.37,0
3075.94,0
3087.51,0
3099.08,0
3110.65,0
3122.23,0
3133.8,0
3145.37,0
3156.94,0
3168.51,0
3180.08,0
3191.65,0
3203.22,0
3214.79,0
3226.36,0
3237.93,0
3249.51,0
3261.08,0
3272.65,0
3284.22,0
3295.79,0
3307.36,0
3318.93,0
3330.5,0
3342.07,0
3353.64,0
3365.22,0
3376.79,0
3388.36,0
3399.93,0
3411.5,0
3423.07,0
3434.64,0
3446.21,0
3457.78,0
3469.35,0.0875137
3480.92,0
3492.5,0.0953332
3504.07,0
3515.64,0.111633
3527.21,0.0923033
3538.78,0.124494
3550.35,0.145175
3561.92,0.124911
3573.49,0.219576
3585.06,0.0990399
3596.63,0.118451
3608.2,0
3619.78,0
3631.35,0.162922
3642.92,0.309454
3654.49,0.259415
3666.06,0.392287
3677.63,0.122524
3689.2,0
3700.77,0.248383
3712.34,0
3723.91,0.337774
3735.49,0
3747.06,0.396151
3758.63,0.311836
3770.2,0.25889
3781.77,0.59874
3793.34,0.633039
3804.91,0.515459
3816.48,0
3828.05,0.546976
3839.62,0.130265
3851.19,0
3862.77,0.380584
3874.34,0.307259
3885.91,0
3897.48,0.343427
3909.05,0.450446
3920.62,0.280212
3932.19,0.233777
3943.76,0.232432
3955.33,0.150411
3966.9,0.118393
3978.47,0
3990.05,0
4000.17,0